== Analysis Data ==
                                               Administrative information

Analysis performed on:                                                        2016/04/29
Analysis performed by:                                                        Ayupov
Comments:                                                                     9mm w/ filler rod with bulb; measure void volume & P0
Instrument:                                                                   Autosorb iQ S/N:14715112301 Station: 1
Instrument version:                                                           4.00.14111
Software version:                                                             n/a
 
                                                   Sample information

Id:                                                                           Nabalox-615-10
Description:                                                                  Non-porous alpha-alumina.Surface potential studies
Weight:                                                                       1.5449 g
 
                                                  Analysis information

Analysis gas:                                                                 Nitrogen
Cross Section Area:                                                           16.2 
Molecular weight:                                                             28.0134 
Non-ideality correction:                                                      6.58e-05 
Ambient temperature:                                                          300 K
== Data Reduction Parameters ==
                  Thermal Transpiration: off    Eff. mol. diameter (D): 3.54 Å      Eff. cell stem diam. (d): 4.0000 mm
t-Method          Calc. method: Halsey
MP method         Thickness interval: 1.00A
Alpha-s method    Std. isotherm: _AALUM1        P / Po :          0.00
BJH/DH method     Moving pt. avg.: 3            Ignoring P-tags below 0.35 P/Po
DA Method         Incr. E:    500.000           Incr. n:          0.100             Interact. Const. (K): 2.960nm³ x kJ / mol
DR method         Affinity coefficient (ß): 0.3300
Adsorbate model   Nitrogen                      Temperature       77.350K
                  Molec. Wt.: 28.013            Cross Section:    16.200  Å²        Liquid Density:   0.806  g/cc
                  Contact Angle: 0.0  degrees   Surf. Tension:    8.850  erg/cm²
                  Critical Temp.: 126.200  K    Critical Press.:  33.500  atm       SuperCritic. K.:  1.000
                  Avg. Diameter:0.300  nm       Polarizability:   1.460  (cc/molec) x 10-24Magn. Suscept.:2.000
                  Molec. Density6.700  (mol/cm²)x1014
Adsorbent model   Oxygen/Zeolite
                  Atom Diameter: 0.276  nm      Surf. Atom Dens.: 13.100  (mol/cm²)x1014Polarizability: 2.500  (cc/molec)x10-24
                                                Magn. Susc.:      1.300  (cc/molec)x10-29
== Extended Outgas Data ==
                                               Outgas Temperature Profile
  
                  Target Temp. (deg)                      Rate (deg/min)                     Soak Time (min)
  
1.                              80.0                                 1.0                                  30
2.                              90.0                                 1.0                                  30
3.                             120.0                                 1.0                                  30
4.                             300.0                                 1.0                                 840
 
                          Pressure Controlled Heating:      Limit: 0.1 torr
 
                                                Empty Cell Weight:      21.7475 g
                                  Pre-outgas Weight (Cell+Sample):      23.2949 g
                                 Post-outgas Weight (Cell+Sample):      23.2924 g
== Isotherm ==


                          Relative                                                  Volume @ STP
                          Pressure                                                         
                                                                                        cc/g

                             1.25893e-07                                                 0.0000
                             1.58489e-07                                                 0.0000
                             1.99526e-07                                                 0.0000
                             2.51189e-07                                                 0.0000
                             3.16228e-07                                                 0.0000
                             5.02461e-07                                                 0.0106
                             5.03635e-07                                                 0.0107
                             6.28892e-07                                                 0.0148
                             8.32070e-07                                                 0.0171
                             9.93051e-07                                                 0.0220
                             1.27643e-06                                                 0.0258
                             1.49733e-06                                                 0.0305
                             1.90818e-06                                                 0.0421
                             2.42592e-06                                                 0.0509
                             3.14715e-06                                                 0.0595
                             4.08455e-06                                                 0.0683
                             5.17208e-06                                                 0.0756
                             6.27098e-06                                                 0.0820
                             7.94802e-06                                                 0.0894
                             1.11689e-05                                                 0.0999
                             1.19224e-05                                                 0.1020
                             1.80932e-05                                                 0.1172
                             1.99518e-05                                                 0.1208
                             2.44750e-05                                                 0.1286
                             3.38350e-05                                                 0.1420
                             4.03628e-05                                                 0.1494
                             5.55492e-05                                                 0.1635
                             6.32515e-05                                                 0.1697
                             1.03295e-04                                                 0.1941
                             1.05550e-04                                                 0.1952
                             1.34089e-04                                                 0.2079
                             1.64183e-04                                                 0.2193
                             2.23782e-04                                                 0.2374
                             2.67318e-04                                                 0.2482
                             3.28089e-04                                                 0.2611
                             4.37227e-04                                                 0.2798
                             5.09357e-04                                                 0.2899
                             6.46631e-04                                                 0.3060
                             8.19487e-04                                                 0.3219
                             1.05462e-03                                                 0.3388
                             1.29880e-03                                                 0.3527
                             1.59262e-03                                                 0.3662
                             2.01735e-03                                                 0.3817
                             2.55485e-03                                                 0.3971
                             3.22306e-03                                                 0.4122
                             4.05213e-03                                                 0.4271
                             5.09472e-03                                                 0.4420
                             6.31629e-03                                                 0.4560
                             7.96355e-03                                                 0.4713
                             1.00303e-02                                                 0.4850
                             1.30521e-02                                                 0.5071
                             1.60213e-02                                                 0.5219
                             1.90193e-02                                                 0.5355
                             2.20494e-02                                                 0.5471
                             2.50531e-02                                                 0.5580
                             5.10038e-02                                                 0.6290
                             7.45736e-02                                                 0.6811
                             9.93395e-02                                                 0.7302
                             1.24335e-01                                                 0.7782
                             1.49475e-01                                                 0.8249
                             1.74453e-01                                                 0.8706
                             1.99569e-01                                                 0.9146
                             2.24322e-01                                                 0.9594
                             2.49532e-01                                                 1.0047
                             2.74165e-01                                                 1.0506
                             2.99776e-01                                                 1.0967
                             3.24517e-01                                                 1.1432
                             3.48917e-01                                                 1.1892
                             3.74431e-01                                                 1.2367
                             3.99507e-01                                                 1.2829
                             4.24429e-01                                                 1.3291
                             4.49253e-01                                                 1.3757
                             4.74169e-01                                                 1.4233
                             4.99357e-01                                                 1.4712
                             5.24069e-01                                                 1.5195
                             5.49324e-01                                                 1.5680
                             5.73810e-01                                                 1.6170
                             6.01027e-01                                                 1.6710
                             6.25531e-01                                                 1.7351
                             6.50661e-01                                                 1.7929
                             6.75878e-01                                                 1.8507
                             7.00873e-01                                                 1.9095
                             7.25084e-01                                                 1.9714
                             7.50365e-01                                                 2.0371
                             7.75390e-01                                                 2.1097
                             7.99845e-01                                                 2.1916
                             8.24458e-01                                                 2.2839
                             8.49306e-01                                                 2.3951
                             8.74649e-01                                                 2.5340
                             8.99407e-01                                                 2.7067
                             9.04654e-01                                                 2.7518
                             9.09262e-01                                                 2.7966
                             9.14484e-01                                                 2.8464
                             9.20501e-01                                                 2.9325
                             9.24474e-01                                                 2.9770
                             9.30201e-01                                                 3.0544
                             9.35476e-01                                                 3.1370
                             9.39109e-01                                                 3.1900
                             9.44552e-01                                                 3.2929
                             9.49863e-01                                                 3.3940
                             9.53705e-01                                                 3.5036
                             9.60050e-01                                                 3.6640
                             9.64699e-01                                                 3.8308
                             9.69340e-01                                                 4.0527
                             9.73984e-01                                                 4.3448
                             9.79698e-01                                                 4.7746
                             9.84017e-01                                                 5.2635
                             9.89246e-01                                                 6.2842
                             9.93399e-01                                                 8.2288
                             9.92945e-01                                                 8.2203
                             9.90594e-01                                                 7.3268
                             9.75376e-01                                                 4.6060
                             9.49475e-01                                                 3.4763
                             9.24316e-01                                                 3.0622
                             9.00797e-01                                                 2.8284
                             8.75511e-01                                                 2.6438
                             8.48869e-01                                                 2.4961
                             8.25515e-01                                                 2.3828
                             8.00177e-01                                                 2.2820
                             7.74292e-01                                                 2.1939
                             7.49795e-01                                                 2.1189
                             7.24340e-01                                                 2.0476
                             6.99228e-01                                                 1.9816
                             6.75748e-01                                                 1.9245
                             6.48563e-01                                                 1.8615
                             6.26197e-01                                                 1.8102
                             6.00887e-01                                                 1.7577
                             5.76065e-01                                                 1.7046
                             5.51033e-01                                                 1.6514
                             5.26098e-01                                                 1.5999
                             5.00729e-01                                                 1.5478
                             4.76011e-01                                                 1.4916
                             4.50760e-01                                                 1.4374
                             4.23873e-01                                                 1.3730
                             4.10131e-01                                                 1.3414
                             3.99745e-01                                                 1.3183
                             3.89626e-01                                                 1.2971
                             3.74596e-01                                                 1.2664
                             3.50958e-01                                                 1.2177
                             3.25629e-01                                                 1.1691
                             3.00608e-01                                                 1.1197
                             2.75626e-01                                                 1.0704
                             2.50545e-01                                                 1.0222
                             2.25573e-01                                                 0.9734
                             2.00533e-01                                                 0.9265
                             1.75662e-01                                                 0.8794
                             1.50387e-01                                                 0.8312
                             1.25435e-01                                                 0.7830
                             1.00701e-01                                                 0.7336
                             7.57642e-02                                                 0.6805
                             5.08526e-02                                                 0.6229
                             2.37858e-02                                                 0.5446
== Absolute Isotherm ==


                          Pressure                                                  Volume @ STP
                                                                                           
                            Torr                                                        cc/g

                             0.0001                                                      0.0000
                             0.0001                                                      0.0000
                             0.0002                                                      0.0000
                             0.0002                                                      0.0000
                             0.0002                                                      0.0000
                             0.0004                                                      0.0106
                             0.0004                                                      0.0107
                             0.0005                                                      0.0148
                             0.0006                                                      0.0171
                             0.0008                                                      0.0220
                             0.0010                                                      0.0258
                             0.0011                                                      0.0305
                             0.0015                                                      0.0421
                             0.0018                                                      0.0509
                             0.0024                                                      0.0595
                             0.0031                                                      0.0683
                             0.0039                                                      0.0756
                             0.0048                                                      0.0820
                             0.0060                                                      0.0894
                             0.0085                                                      0.0999
                             0.0091                                                      0.1020
                             0.0137                                                      0.1172
                             0.0152                                                      0.1208
                             0.0186                                                      0.1286
                             0.0257                                                      0.1420
                             0.0306                                                      0.1494
                             0.0422                                                      0.1635
                             0.0480                                                      0.1697
                             0.0784                                                      0.1941
                             0.0801                                                      0.1952
                             0.1017                                                      0.2079
                             0.1245                                                      0.2193
                             0.1698                                                      0.2374
                             0.2027                                                      0.2482
                             0.2488                                                      0.2611
                             0.3315                                                      0.2798
                             0.3862                                                      0.2899
                             0.4905                                                      0.3060
                             0.6213                                                      0.3219
                             0.7993                                                      0.3388
                             0.9840                                                      0.3527
                             1.2069                                                      0.3662
                             1.5280                                                      0.3817
                             1.9352                                                      0.3971
                             2.4417                                                      0.4122
                             3.0706                                                      0.4271
                             3.8600                                                      0.4420
                             4.7837                                                      0.4560
                             6.0286                                                      0.4713
                             7.5955                                                      0.4850
                             9.8824                                                      0.5071
                            12.1328                                                      0.5219
                            14.3967                                                      0.5355
                            16.6956                                                      0.5471
                            18.9582                                                      0.5580
                            38.6097                                                      0.6290
                            56.4406                                                      0.6811
                            75.1980                                                      0.7302
                            94.1249                                                      0.7782
                           113.1278                                                      0.8249
                           132.0093                                                      0.8706
                           150.9729                                                      0.9146
                           169.8098                                                      0.9594
                           188.8248                                                      1.0047
                           207.7321                                                      1.0506
                           226.8368                                                      1.0967
                           245.4163                                                      1.1432
                           264.1994                                                      1.1892
                           283.4129                                                      1.2367
                           302.2758                                                      1.2829
                           320.9634                                                      1.3291
                           339.7950                                                      1.3757
                           358.7190                                                      1.4233
                           377.6385                                                      1.4712
                           396.3923                                                      1.5195
                           415.3741                                                      1.5680
                           434.0966                                                      1.6170
                           454.6064                                                      1.6710
                           473.3825                                                      1.7351
                           492.2726                                                      1.7929
                           511.3885                                                      1.8507
                           530.2046                                                      1.9095
                           548.7643                                                      1.9714
                           567.5053                                                      2.0371
                           586.2955                                                      2.1097
                           604.9658                                                      2.1916
                           623.6022                                                      2.2839
                           642.4039                                                      2.3951
                           661.5425                                                      2.5340
                           679.9042                                                      2.7067
                           683.8495                                                      2.7518
                           687.4377                                                      2.7966
                           691.2682                                                      2.8464
                           696.0943                                                      2.9325
                           698.9289                                                      2.9770
                           703.1901                                                      3.0544
                           707.4992                                                      3.1370
                           710.1265                                                      3.1900
                           714.2778                                                      3.2929
                           718.0025                                                      3.3940
                           721.5683                                                      3.5036
                           725.4701                                                      3.6640
                           729.1728                                                      3.8308
                           732.9737                                                      4.0527
                           736.7545                                                      4.3448
                           740.6707                                                      4.7746
                           744.0048                                                      5.2635
                           747.9936                                                      6.2842
                           751.4937                                                      8.2288
                           751.2506                                                      8.2203
                           749.1725                                                      7.3268
                           737.3934                                                      4.6060
                           717.2570                                                      3.4763
                           698.7740                                                      3.0622
                           681.0163                                                      2.8284
                           661.6369                                                      2.6438
                           642.2466                                                      2.4961
                           624.0937                                                      2.3828
                           604.7477                                                      2.2820
                           585.5303                                                      2.1939
                           566.7249                                                      2.1189
                           547.6714                                                      2.0476
                           528.3039                                                      1.9816
                           510.8490                                                      1.9245
                           490.3375                                                      1.8615
                           473.1771                                                      1.8102
                           454.1654                                                      1.7577
                           435.3112                                                      1.7046
                           416.3538                                                      1.6514
                           397.3562                                                      1.5999
                           378.2660                                                      1.5478
                           359.5913                                                      1.4916
                           340.6580                                                      1.4374
                           320.2312                                                      1.3730
                           309.7580                                                      1.3414
                           301.8371                                                      1.3183
                           294.2285                                                      1.2971
                           283.0823                                                      1.2664
                           264.9902                                                      1.2177
                           245.8976                                                      1.1691
                           227.0277                                                      1.1197
                           208.2041                                                      1.0704
                           189.2736                                                      1.0222
                           170.4146                                                      0.9734
                           151.4771                                                      0.9265
                           132.7031                                                      0.8794
                           113.5366                                                      0.8312
                            94.7468                                                      0.7830
                            75.9950                                                      0.7336
                            57.1768                                                      0.6805
                            38.3929                                                      0.6229
                            17.9597                                                      0.5446
