== Analysis Data ==
                                               Administrative information

Analysis performed on:                                                        5/13/2019
Analysis performed by:                                                        Ayupov
Comments:                                                                      
Instrument:                                                                   QuadraSorb SI MP Station: 1
Instrument version:                                                           7.01
Software version:                                                             7.01
 
                                                   Sample information

Id:                                                                           MIL-100(2)
Description:                                                                  Toktarev: MIL-100(2)
Weight:                                                                       0.0101 g
Volume:                                                                       0 cc
 
                                             Sample preparation information

Outgas time:                                                                  10.0 hrs
Outgas temperature:                                                           240.0 C
 
                                                  Analysis information

Ambient temperature:                                                          300 K
Thermal delay:                                                                600 sec
Pressure tolerance:                                                           0.100/0.100 (ads/des)
Equilibration time:                                                           250/250 sec (ads/des)
Equilibration timeout:                                                        600/600 sec (ads/des)
Void volume mode:                                                             He Mode.Cell: 6mm large bulb
Analysis mode:                                                                Standard
== Data Reduction Parameters ==
                  Thermal Transpiration: off    Eff. mol. diameter (D): 3.54 Å      Eff. cell stem diam. (d): 4.0000 mm
t-Method          Calc. method: de Boer
MP method         Thickness interval: 0.50A
Alpha-s method    Std. isotherm: _ASIL1         P / Po :          0.40
BJH/DH method     Moving pt. avg.: 3            Ignoring P-tags below 0.35 P/Po
DA Method         Incr. E:    500.000           Incr. n:          0.100             Interact. Const. (K): 2.960nm³ x kJ / mol
DR method         Affinity coefficient (ß): 0.3300
Adsorbate model   Nitrogen                      Temperature       77.350K
                  Molec. Wt.: 28.013            Cross Section:    16.200  Å²        Liquid Density:   0.808  g/cc
                  Contact Angle: 0.0  degrees   Surf. Tension:    8.850  erg/cm²
                  Critical Temp.: 126.200  K    Critical Press.:  33.500  atm       SuperCritic. K.:  1.000
                  Avg. Diameter:0.300  nm       Polarizability:   1.460  (cc/molec) x 10-24Magn. Suscept.:2.000
                  Molec. Density6.700  (mol/cm²)x1014
Adsorbent model   Oxygen/Zeolite
                  Atom Diameter: 0.276  nm      Surf. Atom Dens.: 13.100  (mol/cm²)x1014Polarizability: 2.500  (cc/molec)x10-24
                                                Magn. Susc.:      1.300  (cc/molec)x10-29
Avg. Particle SizeSample skeletal dens.: 2.200  g/cc
== Volume/Area summary ==
                                                   Surface Area Data
 
MultiPoint BET                                                                           1.706e+03 m²/g
BJH method cumulative adsorption surface area                                            5.288e+01 m²/g
BJH method cumulative desorption surface area                                            8.545e+01 m²/g
 
                                                    Pore Volume Data
 
Total pore volume for pores with Diameter
less than 308.20 nm at P/Po = 0.993748                                                   1.067e+00 cc/g
BJH method cumulative adsorption pore volume                                             3.812e-01 cc/g
BJH method cumulative desorption pore volume                                             3.876e-01 cc/g
 
                                                     Pore Size Data
 
Average pore Diameter                                                                    2.503e+00 nm
BJH method adsorption pore Diameter (Mode Dv(d))                                         3.109e+00 nm
BJH method desorption pore Diameter (Mode Dv(d))                                         3.607e+00 nm
 
 
== Isotherm ==


                          Relative                                                  Volume @ STP
                          Pressure                                                         
                                                                                        cc/g

                             1.26293e-03                                               198.2046
                             1.93304e-03                                               218.0420
                             4.01148e-03                                               247.3609
                             6.01238e-03                                               261.1032
                             7.71054e-03                                               268.9230
                             9.75685e-03                                               276.1515
                             1.89247e-02                                               297.5743
                             3.95301e-02                                               336.4855
                             5.91252e-02                                               365.5793
                             7.89819e-02                                               386.1741
                             9.87293e-02                                               408.2167
                             1.19147e-01                                               431.8912
                             1.39582e-01                                               438.1751
                             1.60226e-01                                               441.9663
                             1.80414e-01                                               445.0221
                             2.00912e-01                                               447.4788
                             2.19530e-01                                               449.4836
                             2.40164e-01                                               451.4654
                             2.60217e-01                                               453.2654
                             2.79690e-01                                               454.8337
                             2.99309e-01                                               456.2089
                             3.34081e-01                                               458.5869
                             3.66925e-01                                               460.5506
                             4.00154e-01                                               462.3002
                             4.33501e-01                                               464.1524
                             4.67129e-01                                               465.7340
                             4.99852e-01                                               467.2610
                             5.33743e-01                                               468.6171
                             5.66355e-01                                               470.0611
                             5.99003e-01                                               471.7655
                             6.33620e-01                                               473.3269
                             6.65510e-01                                               474.9491
                             7.00312e-01                                               476.3560
                             7.33517e-01                                               478.4697
                             7.66083e-01                                               480.3731
                             8.00630e-01                                               482.7222
                             8.33104e-01                                               485.5005
                             8.65939e-01                                               488.7288
                             8.99476e-01                                               492.5316
                             9.09130e-01                                               494.0605
                             9.19767e-01                                               496.0143
                             9.29154e-01                                               498.0820
                             9.39354e-01                                               500.6335
                             9.49177e-01                                               504.1987
                             9.59115e-01                                               508.7199
                             9.70236e-01                                               516.5300
                             9.74233e-01                                               520.9402
                             9.81197e-01                                               533.1876
                             9.84148e-01                                               542.3495
                             9.88842e-01                                               582.6223
                             9.91093e-01                                               612.3142
                             9.93748e-01                                               690.0948
                             9.92342e-01                                               682.8935
                             9.91086e-01                                               666.5639
                             9.85219e-01                                               606.9453
                             9.80909e-01                                               555.5747
                             9.75251e-01                                               533.5500
                             9.70850e-01                                               528.3756
                             9.60850e-01                                               521.0495
                             9.49822e-01                                               516.8702
                             9.39365e-01                                               512.8296
                             9.29127e-01                                               510.8805
                             9.20163e-01                                               509.1276
                             9.08830e-01                                               507.3226
                             8.99221e-01                                               506.1274
                             8.65315e-01                                               502.3547
                             8.30811e-01                                               499.6286
                             7.98912e-01                                               497.7823
                             7.64630e-01                                               495.5926
                             7.30239e-01                                               493.6802
                             6.98449e-01                                               492.4155
                             6.65495e-01                                               490.6985
                             6.31890e-01                                               488.8567
                             5.98628e-01                                               486.6853
                             5.66120e-01                                               486.8594
                             5.31775e-01                                               484.9477
                             4.99829e-01                                               482.9753
                             4.66478e-01                                               476.2446
                             4.33869e-01                                               472.1809
                             4.19750e-01                                               471.0200
                             3.99647e-01                                               469.4647
                             3.79646e-01                                               467.9046
                             3.66382e-01                                               466.8542
                             3.33766e-01                                               464.0540
                             2.99485e-01                                               460.8309
                             2.79948e-01                                               458.8896
                             2.60106e-01                                               456.9083
                             2.40090e-01                                               454.7185
                             2.20228e-01                                               452.3451
                             2.00184e-01                                               449.4067
                             1.80226e-01                                               446.2771
                             1.60422e-01                                               442.8624
                             1.40497e-01                                               438.6699
                             1.21111e-01                                               432.3417
                             1.00070e-01                                               408.3067
                             5.04963e-02                                               351.5414
                             2.54682e-02                                               304.6987
                             1.00271e-02                                               271.2308
== Absolute Isotherm ==


                          Pressure                                                  Volume @ STP
                                                                                           
                            Torr                                                        cc/g

                             0.9635                                                    198.2046
                             1.4761                                                    218.0420
                             3.0636                                                    247.3609
                             4.5905                                                    261.1032
                             5.8881                                                    268.9230
                             7.4499                                                    276.1515
                            14.4484                                                    297.5743
                            30.1663                                                    336.4855
                            45.1356                                                    365.5793
                            60.2817                                                    386.1741
                            75.3218                                                    408.2167
                            90.8853                                                    431.8912
                           106.4348                                                    438.1751
                           122.2121                                                    441.9663
                           137.6296                                                    445.0221
                           153.1878                                                    447.4788
                           167.3967                                                    449.4836
                           183.1792                                                    451.4654
                           198.3594                                                    453.2654
                           213.2474                                                    454.8337
                           228.1839                                                    456.2089
                           254.7121                                                    458.5869
                           279.8245                                                    460.5506
                           305.0088                                                    462.3002
                           330.5793                                                    464.1524
                           356.2611                                                    465.7340
                           381.0740                                                    467.2610
                           407.0468                                                    468.6171
                           431.6187                                                    470.0611
                           456.8083                                                    471.7655
                           483.1909                                                    473.3269
                           507.4125                                                    474.9491
                           533.6113                                                    476.3560
                           558.8963                                                    478.4697
                           584.0298                                                    480.3731
                           610.2410                                                    482.7222
                           634.9625                                                    485.5005
                           660.1141                                                    488.7288
                           685.7609                                                    492.5316
                           692.9166                                                    494.0605
                           701.2158                                                    496.0143
                           708.3048                                                    498.0820
                           715.9164                                                    500.6335
                           723.5110                                                    504.1987
                           731.3833                                                    508.7199
                           739.7786                                                    516.5300
                           743.0465                                                    520.9402
                           748.1389                                                    533.1876
                           750.8503                                                    542.3495
                           755.7316                                                    582.6223
                           757.4223                                                    612.3142
                           758.9757                                                    690.0948
                           758.2898                                                    682.8935
                           757.4052                                                    666.5639
                           752.8490                                                    606.9453
                           749.1150                                                    555.5747
                           742.4340                                                    533.5500
                           739.8689                                                    528.3756
                           732.0814                                                    521.0495
                           723.8218                                                    516.8702
                           715.5019                                                    512.8296
                           708.5712                                                    510.8805
                           701.9111                                                    509.1276
                           693.7175                                                    507.3226
                           686.3511                                                    506.1274
                           660.4250                                                    502.3547
                           633.8459                                                    499.6286
                           609.6358                                                    497.7823
                           583.1770                                                    495.5926
                           557.1255                                                    493.6802
                           533.0487                                                    492.4155
                           507.6285                                                    490.6985
                           481.8854                                                    488.8567
                           456.3918                                                    486.6853
                           431.9325                                                    486.8594
                           406.4062                                                    484.9477
                           382.1857                                                    482.9753
                           356.6111                                                    476.2446
                           331.7082                                                    472.1809
                           320.8959                                                    471.0200
                           305.4651                                                    469.4647
                           290.1438                                                    467.9046
                           279.8976                                                    466.8542
                           255.0440                                                    464.0540
                           228.8545                                                    460.8309
                           213.8354                                                    458.8896
                           198.6843                                                    456.9083
                           183.4609                                                    454.7185
                           168.1760                                                    452.3451
                           152.6013                                                    449.4067
                           137.3724                                                    446.2771
                           122.2361                                                    442.8624
                           107.0793                                                    438.6699
                            92.3838                                                    432.3417
                            76.2996                                                    408.3067
                            38.4856                                                    351.5414
                            19.4153                                                    304.6987
                             7.6414                                                    271.2308
== MBET summary ==
                                                     Slope =           2.027 1/g
                                                 Intercept =           1.412e-02 1/g
                                Correlation coefficient, r =           0.998876
                                                 C constant=         144.550
 
                                              Surface Area =        1706.010 ~s/g
== Multi-Point BET ==


               Relative                            Volume @ STP                       1 / [ W((Po/P) - 1) ]
               Pressure                                                                          
                 P/Po                                  cc/g                                    1/g

                  9.75685e-03                         276.1515                                 2.8548e-02
                  1.89247e-02                         297.5743                                 5.1866e-02
                  3.95301e-02                         336.4855                                 9.7865e-02
                  5.91252e-02                         365.5793                                 1.3753e-01
                  7.89819e-02                         386.1741                                 1.7767e-01
                  9.87293e-02                         408.2167                                 2.1471e-01
                  1.19147e-01                         431.8912                                 2.5059e-01
== Alpha-s summary ==
                                                     Slope =         114.763
                                         Alpha-S Intercept =         354.604 cc/g
                                   Correlation coefficient =           0.982
 
                                          Micropore volume =           0.549 cc/g
== Alpha-S method ==


            P/Po                     Volume @ STP                  Liquid Vol.                    Alpha
                                                                                                     
                                         cc/g                         cc/g                           

             1.1915e-01                   4.3189e+02                   6.6806e-01                  6.9915e-01
             1.3958e-01                   4.3818e+02                   6.7778e-01                  7.2937e-01
             1.6023e-01                   4.4197e+02                   6.8364e-01                  7.5023e-01
             1.8041e-01                   4.4502e+02                   6.8837e-01                  7.7062e-01
             2.0091e-01                   4.4748e+02                   6.9217e-01                  8.0091e-01
             2.1953e-01                   4.4948e+02                   6.9527e-01                  8.1953e-01
             2.4016e-01                   4.5147e+02                   6.9833e-01                  8.4016e-01
             2.6022e-01                   4.5327e+02                   7.0112e-01                  8.6022e-01
             2.7969e-01                   4.5483e+02                   7.0354e-01                  8.7969e-01
             2.9931e-01                   4.5621e+02                   7.0567e-01                  8.9931e-01
== BJH adsorption summary ==
 
                                              Surface Area =          52.879 ~s/g
                                               Pore Volume =           0.381 cc/g
                                            Pore ^D Dv(^p) =           3.109 ^d
 
== ^G Adsorption  ==


    Diameter        Pore Volume       Pore Surf         dV(d)            dS(d)          dV(logd)         dS(logd)
                                        Area                                                                  
       nm              cc/g             m²/g           cc/nm/g          m²/nm/g           cc/g             cc/g

       3.1087           4.2681e-03       5.4918e+00      1.8821e-02       2.4217e+01       1.3466e-01       1.7327e+02
       3.3462           8.5410e-03       1.0496e+01      1.6805e-02       2.0285e+01       1.2861e-01       1.5471e+02
       3.6083           1.2405e-02       1.4821e+01      1.4322e-02       1.6105e+01       1.1770e-01       1.3185e+02
       3.8952           1.5623e-02       1.8153e+01      1.0704e-02       1.1144e+01       9.5001e-02       9.8536e+01
       4.2173           1.8623e-02       2.1013e+01      8.9565e-03       8.5982e+00       8.6275e-02       8.2449e+01
       4.5793           2.1707e-02       2.3688e+01      7.9739e-03       6.9591e+00       8.4499e-02       7.3399e+01
       4.9843           2.4898e-02       2.6248e+01      7.2671e-03       5.8830e+00       8.3016e-02       6.6889e+01
       5.4677           2.8167e-02       2.8654e+01      6.4947e-03       4.8275e+00       8.0915e-02       5.9775e+01
       6.0252           3.0979e-02       3.0538e+01      4.6793e-03       3.1670e+00       6.3999e-02       4.3062e+01
       6.6975           3.4147e-02       3.2411e+01      4.3130e-03       2.5977e+00       6.6516e-02       3.9685e+01
       7.5296           3.7373e-02       3.4104e+01      3.4949e-03       1.8595e+00       6.0933e-02       3.2150e+01
       8.5375           4.1207e-02       3.5899e+01      3.3797e-03       1.6222e+00       6.5548e-02       3.1082e+01
       9.8740           4.5321e-02       3.7535e+01      2.6841e-03       1.1004e+00       6.1160e-02       2.4673e+01
      11.6633           5.0161e-02       3.9168e+01      2.3004e-03       8.0616e-01       6.1542e-02       2.1131e+01
      14.1699           5.5700e-02       4.0703e+01      1.8370e-03       5.4194e-01       5.8834e-02       1.6855e+01
      18.1620           6.0456e-02       4.1834e+01      1.4341e-03       3.3940e-01       5.7433e-02       1.3160e+01
      21.7073           6.4461e-02       4.2625e+01      1.1970e-03       2.2829e-01       5.8466e-02       1.0993e+01
      24.1978           6.7555e-02       4.3131e+01      1.1390e-03       1.8936e-01       6.3578e-02       1.0480e+01
      27.2619           7.1210e-02       4.3662e+01      1.0374e-03       1.5359e-01       6.5124e-02       9.5414e+00
      31.2066           7.5778e-02       4.4231e+01      9.8248e-04       1.2641e-01       7.1263e-02       9.0328e+00
      36.6290           8.1706e-02       4.4857e+01      8.9829e-04       9.8695e-02       7.6597e-02       8.2522e+00
      44.3612           9.0548e-02       4.5602e+01      8.3989e-04       7.6726e-02       8.7222e-02       7.7018e+00
      57.7990           9.9826e-02       4.6264e+01      7.6049e-04       5.5075e-02       1.0013e-01       6.9740e+00
      71.6119           1.1331e-01       4.6997e+01      7.3278e-04       4.1378e-02       1.2285e-01       6.7104e+00
      90.3974           1.2746e-01       4.7606e+01      7.5076e-04       3.3659e-02       1.5924e-01       6.8880e+00
     113.6532           1.6097e-01       4.8666e+01      9.3692e-04       3.1636e-02       2.6459e-01       8.5674e+00
     148.4984           2.0366e-01       4.9754e+01      1.0606e-03       2.8364e-02       3.7900e-01       9.7100e+00
     195.5046           2.8266e-01       5.1296e+01      1.2506e-03       2.5996e-02       5.8176e-01       1.1424e+01
     262.6735           3.8117e-01       5.2879e+01      1.3607e-03       2.0721e-02       8.1470e-01       1.2406e+01
== ^G Interpolated Adsorption ==


            Diameter                   Average         Volume         Cumulative       Surf. Area       Cumulative
            Interval                  Diameter        Increment         Volume          Increment       Surf. Area
               nm                        nm             cc/g             cc/g             m²/g             m²/g

          200.000 - 300.000            250.000           9.192e-02        9.192e-02        1.471e+00        1.471e+00
          100.000 - 200.000            150.000           1.480e-01        2.399e-01        3.946e+00        5.416e+00
           90.000 - 100.000             95.000           1.413e-02        2.540e-01        5.951e-01        6.011e+00
           80.000 - 90.000              85.000           7.534e-03        2.615e-01        3.545e-01        6.366e+00
           70.000 - 80.000              75.000           7.893e-03        2.694e-01        4.209e-01        6.787e+00
           60.000 - 70.000              65.000           9.761e-03        2.792e-01        6.007e-01        7.388e+00
           50.000 - 60.000              55.000           7.533e-03        2.867e-01        5.478e-01        7.935e+00
           40.000 - 50.000              45.000           8.880e-03        2.956e-01        7.894e-01        8.725e+00
           30.000 - 40.000              35.000           1.118e-02        3.068e-01        1.278e+00        1.000e+01
           20.000 - 30.000              25.000           1.185e-02        3.186e-01        1.896e+00        1.190e+01
           10.000 - 20.000              15.000           1.687e-02        3.355e-01        4.499e+00        1.640e+01
            9.000 - 10.000               9.500           3.031e-03        3.385e-01        1.276e+00        1.767e+01
            8.000 - 9.000                8.500           3.468e-03        3.420e-01        1.632e+00        1.931e+01
            7.000 - 8.000                7.500           3.843e-03        3.459e-01        2.049e+00        2.135e+01
            6.000 - 7.000                6.500           4.468e-03        3.503e-01        2.749e+00        2.410e+01
            5.000 - 6.000                5.500           5.848e-03        3.562e-01        4.253e+00        2.836e+01
            4.000 - 5.000                4.500           8.405e-03        3.646e-01        7.471e+00        3.583e+01
            3.000 - 4.000                3.500           1.233e-02        3.769e-01        1.409e+01        4.992e+01
== BJH desorption summary ==
 
                                              Surface Area =          85.445 ~s/g
                                               Pore Volume =           0.388 cc/g
                                            Pore ^D Dv(^p) =           3.607 ^d
 
== ^G Desorption  ==


    Diameter        Pore Volume       Pore Surf         dV(d)            dS(d)          dV(logd)         dS(logd)
                                        Area                                                                  
       nm              cc/g             m²/g           cc/nm/g          m²/nm/g           cc/g             cc/g

       3.0358           2.5401e-03       3.3469e+00      2.8812e-02       3.7963e+01       2.0139e-01       2.6535e+02
       3.1492           6.2608e-03       8.0050e+00      2.6977e-02       3.4259e+01       1.9584e-01       2.4843e+02
       3.2918           9.6812e-03       1.2187e+01      2.6114e-02       3.1831e+01       1.9753e-01       2.4049e+02
       3.4192           1.5676e-02       1.9024e+01      3.1419e-02       3.6266e+01       2.5101e-01       2.8930e+02
       3.6069           2.7313e-02       3.1428e+01      4.5682e-02       4.9351e+01       3.9034e-01       4.2058e+02
       3.8923           3.9607e-02       4.4249e+01      4.1866e-02       4.3808e+01       3.6921e-01       3.8541e+02
       4.2066           4.9550e-02       5.4121e+01      3.1287e-02       3.1211e+01       2.8958e-01       2.8801e+02
       4.5672           5.2620e-02       5.6931e+01      8.6336e-03       7.9312e+00       8.6656e-02       7.9475e+01
       4.9802           5.5713e-02       5.9408e+01      6.8882e-03       5.5815e+00       7.8852e-02       6.3400e+01
       5.4506           5.8590e-02       6.1435e+01      5.2372e-03       3.7027e+00       6.8329e-02       4.8198e+01
       6.0107           6.2565e-02       6.4118e+01      6.7637e-03       4.6175e+00       9.1768e-02       6.2245e+01
       6.6748           6.5570e-02       6.5961e+01      4.3552e-03       2.6977e+00       6.5118e-02       4.0075e+01
       7.4580           6.8431e-02       6.7494e+01      3.2563e-03       1.7816e+00       5.5314e-02       2.9957e+01
       8.4605           7.1449e-02       6.8881e+01      2.5534e-03       1.2029e+00       5.0426e-02       2.3481e+01
       9.8012           7.4739e-02       7.0239e+01      2.2581e-03       9.5441e-01       4.9803e-02       2.0758e+01
      11.5350           7.8341e-02       7.1476e+01      1.7597e-03       6.3213e-01       4.5990e-02       1.6164e+01
      14.0514           8.2689e-02       7.2644e+01      1.3353e-03       3.8422e-01       4.3975e-02       1.2248e+01
      18.1020           8.6727e-02       7.3605e+01      1.1557e-03       2.7400e-01       4.6112e-02       1.0601e+01
      21.6465           9.0301e-02       7.4319e+01      1.0065e-03       1.9432e-01       4.8614e-02       9.2407e+00
      24.2229           9.2814e-02       7.4728e+01      9.0954e-04       1.5035e-01       5.1073e-02       8.3682e+00
      27.3177           9.5720e-02       7.5153e+01      8.2973e-04       1.2338e-01       5.1834e-02       7.6315e+00
      31.2042           9.9918e-02       7.5664e+01      8.5487e-04       1.0846e-01       6.2985e-02       7.8584e+00
      36.8776           1.0542e-01       7.6234e+01      7.5924e-04       8.2304e-02       6.5614e-02       6.9716e+00
      45.6541           1.1393e-01       7.6945e+01      7.8106e-04       7.0591e-02       8.2506e-02       7.1616e+00
      59.5263           1.2303e-01       7.7565e+01      6.8689e-04       4.7224e-02       9.5114e-02       6.2980e+00
      73.8244           1.4207e-01       7.8524e+01      1.0110e-03       5.2405e-02       1.8431e-01       9.2661e+00
      91.1624           1.8527e-01       8.0173e+01      1.7366e-03       6.9288e-02       4.1073e-01       1.5918e+01
     117.2579           2.5770e-01       8.2404e+01      1.8713e-03       6.4805e-02       5.1798e-01       1.7093e+01
     174.4243           3.2665e-01       8.4249e+01      1.5883e-03       4.5740e-02       5.4069e-01       1.4508e+01
     234.5382           3.7125e-01       8.5188e+01      6.9274e-04       1.3841e-02       3.2563e-01       6.3040e+00
     280.1531           3.8759e-01       8.5445e+01      2.0415e-04       2.9148e-03       1.3125e-01       1.8740e+00
== ^G Interpolated Desorption ==


            Diameter                   Average         Volume         Cumulative       Surf. Area       Cumulative
            Interval                  Diameter       Incremen t         Volume          Increment       Surf. Area
               nm                        nm             cc/g             cc/g             m²/g             m²/g

          200.000 - 300.000            250.000           4.196e-02        4.196e-02        6.714e-01        6.714e-01
          100.000 - 200.000            150.000           1.358e-01        1.778e-01        3.622e+00        4.293e+00
           90.000 - 100.000             95.000           2.743e-02        2.052e-01        1.155e+00        5.448e+00
           80.000 - 90.000              85.000           2.491e-02        2.301e-01        1.172e+00        6.621e+00
           70.000 - 80.000              75.000           2.048e-02        2.506e-01        1.092e+00        7.713e+00
           60.000 - 70.000              65.000           1.332e-02        2.639e-01        8.195e-01        8.532e+00
           50.000 - 60.000              55.000           6.880e-03        2.708e-01        5.004e-01        9.033e+00
           40.000 - 50.000              45.000           8.334e-03        2.791e-01        7.408e-01        9.773e+00
           30.000 - 40.000              35.000           9.832e-03        2.890e-01        1.124e+00        1.090e+01
           20.000 - 30.000              25.000           9.977e-03        2.989e-01        1.596e+00        1.249e+01
           10.000 - 20.000              15.000           1.349e-02        3.124e-01        3.597e+00        1.609e+01
            9.000 - 10.000               9.500           2.379e-03        3.148e-01        1.002e+00        1.709e+01
            8.000 - 9.000                8.500           2.710e-03        3.175e-01        1.275e+00        1.837e+01
            7.000 - 8.000                7.500           3.305e-03        3.208e-01        1.763e+00        2.013e+01
            6.000 - 7.000                6.500           4.268e-03        3.251e-01        2.627e+00        2.276e+01
            5.000 - 6.000                5.500           6.656e-03        3.318e-01        4.841e+00        2.760e+01
            4.000 - 5.000                4.500           1.282e-02        3.446e-01        1.139e+01        3.899e+01
            3.000 - 4.000                3.500           4.048e-02        3.850e-01        4.626e+01        8.525e+01
